{
  "resourceType": "Bundle",
  "id": "navigation-mock-bundle",
  "meta": {
    "lastUpdated": "2017-03-20T19:14:34.529Z"
  },
  "type": "searchset",
  "total": 9,
  "link": [
    {
      "relation": "self",
      "url": "http://localhost:8081/fhir/Observation?identifier.value=resource.reportingOrganization.reference.identifier"
    }
  ],
  "entry": [
    {
      "fullUrl": "http://localhost:8081/fhir/Organization",
      "resource": {
        "resourceType": "Organization",
        "id": "ti001",
        "text": {
          "status": "generated",
          "div": "<div </div>"
        },
        "active": true,
        "type": [
          {
            "coding": [
              {
                "system": "http://hl7.org/fhir/organization-type",
                "code": "dept",
                "display": "Region"
              }
            ]
          }
        ],
        "name": "West Region",
        "telecom": [
          {
            "system": "phone",
            "value": "858-555-1234"
          }
        ],
        "address": [
          {
            "line": [
              "West Wing, floor 1"
            ]
          }
        ],
        "contact": [
          {
            "purpose": {
              "coding": [
                {
                  "system": "http://hl7.org/fhir/contactentity-type",
                  "code": "ADMIN"
                }
              ]
            },
            "name": {
              "text": "John Smith"
            },
            "telecom": [
              {
                "system": "phone",
                "value": "858-123-4567"
              },
              {
                "system": "email",
                "value": "john.smith@transcendinsights.com"
              },
              {
                "system": "fax",
                "value": "858-123-4567"
              }
            ],
            "address": {
              "line": [
                "1600 Pennsylvania Avenue"
              ]
            }
          }
        ]
      }
    },
    {
      "fullUrl": "http://localhost:8081/fhir/Organization",
      "resource": {
        "resourceType": "Organization",
        "id": "ti002",
        "text": {
          "status": "generated",
          "div": "<div </div>"
        },
        "active": true,
        "type": [
          {
            "coding": [
              {
                "system": "http://hl7.org/fhir/organization-type",
                "code": "dept",
                "display": "Market"
              }
            ]
          }
        ],
        "name": "Southern California Market",
        "telecom": [
          {
            "system": "phone",
            "value": "858-555-1234"
          }
        ],
        "address": [
          {
            "line": [
              "South Wing, floor 2"
            ]
          }
        ],
        "partOf": {
          "reference": "Organization/ti001"
        },
        "contact": [
          {
            "purpose": {
              "coding": [
                {
                  "system": "http://hl7.org/fhir/contactentity-type",
                  "code": "ADMIN"
                }
              ]
            },
            "name": {
              "text": "Jane Smith"
            },
            "telecom": [
              {
                "system": "phone",
                "value": "858-123-4567"
              },
              {
                "system": "email",
                "value": "jane.smith@transcendinsights.com"
              },
              {
                "system": "fax",
                "value": "858-123-4567"
              }
            ],
            "address": {
              "line": [
                "1600 Pennsylvania Avenue"
              ]
            }
          }
        ]
      }
    },
    {
      "fullUrl": "http://localhost:8081/fhir/Organization",
      "resource": {
        "resourceType": "Organization",
        "id": "ti003",
        "text": {
          "status": "generated",
          "div": "<div </div>"
        },
        "active": true,
        "type": [
          {
            "coding": [
              {
                "system": "http://hl7.org/fhir/organization-type",
                "code": "dept",
                "display": "Cohort"
              }
            ]
          }
        ],
        "name": "La Jolla Cohort Group",
        "telecom": [
          {
            "system": "phone",
            "value": "858-555-1234"
          }
        ],
        "address": [
          {
            "line": [
              "South Wing, floor 3"
            ]
          }
        ],
        "partOf": {
          "reference": "Organization/ti002"
        },
        "contact": [
          {
            "purpose": {
              "coding": [
                {
                  "system": "http://hl7.org/fhir/contactentity-type",
                  "code": "ADMIN"
                }
              ]
            },
            "name": {
              "text": "Betty Smith"
            },
            "telecom": [
              {
                "system": "phone",
                "value": "858-123-4567"
              },
              {
                "system": "email",
                "value": "betty.smith@transcendinsights.com"
              },
              {
                "system": "fax",
                "value": "858-123-4567"
              }
            ],
            "address": {
              "line": [
                "1600 Pennsylvania Avenue"
              ]
            }
          }
        ]
      }
    },
    {
      "fullUrl": "http://localhost:8081/fhir/Organization",
      "resource": {
        "resourceType": "Organization",
        "id": "ti004",
        "text": {
          "status": "generated",
          "div": "<div </div>"
        },
        "active": true,
        "type": [
          {
            "coding": [
              {
                "system": "http://hl7.org/fhir/organization-type",
                "code": "dept",
                "display": "Region"
              }
            ]
          }
        ],
        "name": "East Region",
        "telecom": [
          {
            "system": "phone",
            "value": "858-555-1234"
          }
        ],
        "address": [
          {
            "line": [
              "East Wing, floor 1"
            ]
          }
        ],
        "contact": [
          {
            "purpose": {
              "coding": [
                {
                  "system": "http://hl7.org/fhir/contactentity-type",
                  "code": "ADMIN"
                }
              ]
            },
            "name": {
              "text": "John Smith"
            },
            "telecom": [
              {
                "system": "phone",
                "value": "858-123-4567"
              },
              {
                "system": "email",
                "value": "john.smith@transcendinsights.com"
              },
              {
                "system": "fax",
                "value": "858-123-4567"
              }
            ],
            "address": {
              "line": [
                "1600 Pennsylvania Avenue"
              ]
            }
          }
        ]
      }
    },
    {
      "fullUrl": "http://localhost:8081/fhir/Organization",
      "resource": {
        "resourceType": "Organization",
        "id": "ti005",
        "text": {
          "status": "generated",
          "div": "<div </div>"
        },
        "active": true,
        "type": [
          {
            "coding": [
              {
                "system": "http://hl7.org/fhir/organization-type",
                "code": "dept",
                "display": "Market"
              }
            ]
          }
        ],
        "name": "New England Market",
        "telecom": [
          {
            "system": "phone",
            "value": "858-555-1234"
          }
        ],
        "address": [
          {
            "line": [
              "East Wing, floor 2"
            ]
          }
        ],
        "partOf": {
          "reference": "Organization/ti004"
        },
        "contact": [
          {
            "purpose": {
              "coding": [
                {
                  "system": "http://hl7.org/fhir/contactentity-type",
                  "code": "ADMIN"
                }
              ]
            },
            "name": {
              "text": "Jane Smith"
            },
            "telecom": [
              {
                "system": "phone",
                "value": "858-123-4567"
              },
              {
                "system": "email",
                "value": "jane.smith@transcendinsights.com"
              },
              {
                "system": "fax",
                "value": "858-123-4567"
              }
            ],
            "address": {
              "line": [
                "1600 Pennsylvania Avenue"
              ]
            }
          }
        ]
      }
    },
    {
      "fullUrl": "http://localhost:8081/fhir/Organization",
      "resource": {
        "resourceType": "Organization",
        "id": "ti006",
        "text": {
          "status": "generated",
          "div": "<div </div>"
        },
        "active": true,
        "type": [
          {
            "coding": [
              {
                "system": "http://hl7.org/fhir/organization-type",
                "code": "dept",
                "display": "Market"
              }
            ]
          }
        ],
        "name": "South Appalacian Market",
        "telecom": [
          {
            "system": "phone",
            "value": "858-555-1234"
          }
        ],
        "address": [
          {
            "line": [
              "East Wing, floor 2"
            ]
          }
        ],
        "partOf": {
          "reference": "Organization/ti004"
        },
        "contact": [
          {
            "purpose": {
              "coding": [
                {
                  "system": "http://hl7.org/fhir/contactentity-type",
                  "code": "ADMIN"
                }
              ]
            },
            "name": {
              "text": "Jane Smith"
            },
            "telecom": [
              {
                "system": "phone",
                "value": "858-123-4567"
              },
              {
                "system": "email",
                "value": "jane.smith@transcendinsights.com"
              },
              {
                "system": "fax",
                "value": "858-123-4567"
              }
            ],
            "address": {
              "line": [
                "1600 Pennsylvania Avenue"
              ]
            }
          }
        ]
      }
    },
    {
      "fullUrl": "http://localhost:8081/fhir/Organization",
      "resource": {
        "resourceType": "Organization",
        "id": "ti007",
        "text": {
          "status": "generated",
          "div": "<div </div>"
        },
        "active": true,
        "type": [
          {
            "coding": [
              {
                "system": "http://hl7.org/fhir/organization-type",
                "code": "dept",
                "display": "Cohort"
              }
            ]
          }
        ],
        "name": "Connecticut Cohort Group",
        "telecom": [
          {
            "system": "phone",
            "value": "858-555-1234"
          }
        ],
        "address": [
          {
            "line": [
              "South Wing, floor 3"
            ]
          }
        ],
        "partOf": {
          "reference": "Organization/ti005"
        },
        "contact": [
          {
            "purpose": {
              "coding": [
                {
                  "system": "http://hl7.org/fhir/contactentity-type",
                  "code": "ADMIN"
                }
              ]
            },
            "name": {
              "text": "Betty Smith"
            },
            "telecom": [
              {
                "system": "phone",
                "value": "858-123-4567"
              },
              {
                "system": "email",
                "value": "betty.smith@transcendinsights.com"
              },
              {
                "system": "fax",
                "value": "858-123-4567"
              }
            ],
            "address": {
              "line": [
                "1600 Pennsylvania Avenue"
              ]
            }
          }
        ]
      }
    },
    {
      "fullUrl": "http://localhost:8081/fhir/Organization",
      "resource": {
        "resourceType": "Organization",
        "id": "ti008",
        "text": {
          "status": "generated",
          "div": "<div </div>"
        },
        "active": true,
        "type": [
          {
            "coding": [
              {
                "system": "http://hl7.org/fhir/organization-type",
                "code": "dept",
                "display": "Cohort"
              }
            ]
          }
        ],
        "name": "Boston Cohort Group",
        "telecom": [
          {
            "system": "phone",
            "value": "858-555-1234"
          }
        ],
        "address": [
          {
            "line": [
              "South Wing, floor 3"
            ]
          }
        ],
        "partOf": {
          "reference": "Organization/ti005"
        },
        "contact": [
          {
            "purpose": {
              "coding": [
                {
                  "system": "http://hl7.org/fhir/contactentity-type",
                  "code": "ADMIN"
                }
              ]
            },
            "name": {
              "text": "Betty Smith"
            },
            "telecom": [
              {
                "system": "phone",
                "value": "858-123-4567"
              },
              {
                "system": "email",
                "value": "betty.smith@transcendinsights.com"
              },
              {
                "system": "fax",
                "value": "858-123-4567"
              }
            ],
            "address": {
              "line": [
                "1600 Pennsylvania Avenue"
              ]
            }
          }
        ]
      }
    },
    {
      "fullUrl": "http://localhost:8081/fhir/Organization",
      "resource": {
        "resourceType": "Organization",
        "id": "ti009",
        "text": {
          "status": "generated",
          "div": "<div </div>"
        },
        "active": true,
        "type": [
          {
            "coding": [
              {
                "system": "http://hl7.org/fhir/organization-type",
                "code": "dept",
                "display": "Cohort"
              }
            ]
          }
        ],
        "name": "Atlanta Cohort Group",
        "telecom": [
          {
            "system": "phone",
            "value": "858-555-1234"
          }
        ],
        "address": [
          {
            "line": [
              "South Wing, floor 3"
            ]
          }
        ],
        "partOf": {
          "reference": "Organization/ti006"
        },
        "contact": [
          {
            "purpose": {
              "coding": [
                {
                  "system": "http://hl7.org/fhir/contactentity-type",
                  "code": "ADMIN"
                }
              ]
            },
            "name": {
              "text": "Betty Smith"
            },
            "telecom": [
              {
                "system": "phone",
                "value": "858-123-4567"
              },
              {
                "system": "email",
                "value": "betty.smith@transcendinsights.com"
              },
              {
                "system": "fax",
                "value": "858-123-4567"
              }
            ],
            "address": {
              "line": [
                "1600 Pennsylvania Avenue"
              ]
            }
          }
        ]
      }
    }
  ]
}